# File Format = ASCII
# Save As: C:\Omicron\data\sample\2009 05 26 ALD6\Pictures\7cycle_Abbott_prf.asc
# Original file: c:\omicron\data\sample\2009 05 26 ald6\next day\7cy\m2_ori.tb0_Abbott.prf
# Curve plot created by SPIP V.3.3.9.0
# 13:49
# points   = 500
# X-Axis: Bearing area[%]; Y-Axis: Height [nm]
# length = 100
# offset = 0
# Start of Data:
# x-phys	 y-val
#------------------------------
       0	 1.16291	
0.200401	 1.16058	
0.400802	0.920543	
0.601202	0.878594	
0.801603	0.845967	
   1.002	0.824993	
  1.2024	0.806349	
 1.40281	0.790035	
 1.60321	0.776052	
 1.80361	  0.7644	
 2.00401	0.755078	
 2.20441	0.745756	
 2.40481	0.736434	
 2.60521	0.727112	
 2.80561	0.720121	
 3.00601	0.713129	
 3.20641	0.706138	
 3.40681	0.699146	
 3.60721	0.692155	
 3.80762	0.685163	
 4.00802	0.680502	
 4.20842	0.675842	
 4.40882	 0.66885	
 4.60922	0.664189	
 4.80962	0.659528	
 5.01002	0.654867	
 5.21042	0.650206	
 5.41082	0.645545	
 5.61122	0.640884	
 5.81162	0.636223	
 6.01202	0.633893	
 6.21242	0.629232	
 6.41283	0.624571	
 6.61323	 0.62224	
 6.81363	0.617579	
 7.01403	0.612918	
 7.21443	0.610588	
 7.41483	0.608257	
 7.61523	0.603596	
 7.81563	0.601266	
 8.01603	0.596605	
 8.21643	0.594274	
 8.41683	0.589613	
 8.61723	0.587283	
 8.81764	0.584952	
 9.01804	0.580292	
 9.21844	0.577961	
 9.41884	0.575631	
 9.61924	  0.5733	
 9.81964	0.568639	
   10.02	0.566309	
 10.2204	0.563978	
 10.4208	0.561648	
 10.6212	0.559317	
 10.8216	0.556987	
  11.022	0.552326	
 11.2224	0.549995	
 11.4228	0.547665	
 11.6232	0.545334	
 11.8236	0.543004	
  12.024	0.540673	
 12.2244	0.538343	
 12.4248	0.536012	
 12.6253	0.533682	
 12.8257	0.531351	
 13.0261	0.529021	
 13.2265	 0.52669	
 13.4269	 0.52669	
 13.6273	 0.52436	
 13.8277	0.522029	
 14.0281	0.519699	
 14.2285	0.517368	
 14.4289	0.515038	
 14.6293	0.512707	
 14.8297	0.512707	
 15.0301	0.510377	
 15.2305	0.508046	
 15.4309	0.508046	
 15.6313	0.505716	
 15.8317	0.503385	
 16.0321	0.503385	
 16.2325	0.501055	
 16.4329	0.498724	
 16.6333	0.496394	
 16.8337	0.496394	
 17.0341	0.494063	
 17.2345	0.491733	
 17.4349	0.491733	
 17.6353	0.489402	
 17.8357	0.487072	
 18.0361	0.487072	
 18.2365	0.484742	
 18.4369	0.484742	
 18.6373	0.482411	
 18.8377	0.480081	
 19.0381	0.480081	
 19.2385	 0.47775	
 19.4389	 0.47775	
 19.6393	 0.47542	
 19.8397	0.473089	
 20.0401	0.473089	
 20.2405	0.470759	
 20.4409	0.470759	
 20.6413	0.468428	
 20.8417	0.466098	
 21.0421	0.466098	
 21.2425	0.463767	
 21.4429	0.463767	
 21.6433	0.463767	
 21.8437	0.461437	
 22.0441	0.461437	
 22.2445	0.459106	
 22.4449	0.459106	
 22.6453	0.456776	
 22.8457	0.456776	
 23.0461	0.454445	
 23.2465	0.454445	
 23.4469	0.452115	
 23.6473	0.452115	
 23.8477	0.449784	
 24.0481	0.449784	
 24.2485	0.447454	
 24.4489	0.447454	
 24.6493	0.447454	
 24.8497	0.445123	
 25.0501	0.445123	
 25.2505	0.442793	
 25.4509	0.442793	
 25.6513	0.440462	
 25.8517	0.440462	
 26.0521	0.440462	
 26.2525	0.438132	
 26.4529	0.438132	
 26.6533	0.435801	
 26.8537	0.435801	
 27.0541	0.433471	
 27.2545	0.433471	
 27.4549	0.433471	
 27.6553	 0.43114	
 27.8557	 0.43114	
 28.0561	 0.43114	
 28.2565	 0.42881	
 28.4569	 0.42881	
 28.6573	0.426479	
 28.8577	0.426479	
 29.0581	0.426479	
 29.2585	0.424149	
 29.4589	0.424149	
 29.6593	0.424149	
 29.8597	0.421818	
 30.0601	0.421818	
 30.2605	0.421818	
 30.4609	0.419488	
 30.6613	0.419488	
 30.8617	0.419488	
 31.0621	0.417157	
 31.2625	0.417157	
 31.4629	0.417157	
 31.6633	0.414827	
 31.8637	0.414827	
 32.0641	0.414827	
 32.2645	0.412496	
 32.4649	0.412496	
 32.6653	0.412496	
 32.8657	0.410166	
 33.0661	0.410166	
 33.2665	0.410166	
 33.4669	0.407835	
 33.6673	0.407835	
 33.8677	0.407835	
 34.0681	0.405505	
 34.2685	0.405505	
 34.4689	0.405505	
 34.6693	0.403174	
 34.8697	0.403174	
 35.0701	0.403174	
 35.2705	0.403174	
 35.4709	0.400844	
 35.6713	0.400844	
 35.8717	0.400844	
 36.0721	0.398513	
 36.2725	0.398513	
 36.4729	0.398513	
 36.6733	0.396183	
 36.8737	0.396183	
 37.0741	0.396183	
 37.2745	0.396183	
 37.4749	0.393852	
 37.6754	0.393852	
 37.8758	0.393852	
 38.0762	0.391522	
 38.2766	0.391522	
  38.477	0.391522	
 38.6774	0.391522	
 38.8778	0.389191	
 39.0782	0.389191	
 39.2786	0.389191	
  39.479	0.386861	
 39.6794	0.386861	
 39.8798	0.386861	
 40.0802	0.386861	
 40.2806	0.384531	
  40.481	0.384531	
 40.6814	0.384531	
 40.8818	0.384531	
 41.0822	  0.3822	
 41.2826	  0.3822	
  41.483	  0.3822	
 41.6834	 0.37987	
 41.8838	 0.37987	
 42.0842	 0.37987	
 42.2846	 0.37987	
  42.485	0.377539	
 42.6854	0.377539	
 42.8858	0.377539	
 43.0862	0.377539	
 43.2866	0.375209	
  43.487	0.375209	
 43.6874	0.375209	
 43.8878	0.375209	
 44.0882	0.372878	
 44.2886	0.372878	
  44.489	0.372878	
 44.6894	0.372878	
 44.8898	0.370548	
 45.0902	0.370548	
 45.2906	0.370548	
  45.491	0.370548	
 45.6914	0.368217	
 45.8918	0.368217	
 46.0922	0.368217	
 46.2926	0.368217	
  46.493	0.365887	
 46.6934	0.365887	
 46.8938	0.365887	
 47.0942	0.365887	
 47.2946	0.363556	
  47.495	0.363556	
 47.6954	0.363556	
 47.8958	0.363556	
 48.0962	0.361226	
 48.2966	0.361226	
  48.497	0.361226	
 48.6974	0.361226	
 48.8978	0.358895	
 49.0982	0.358895	
 49.2986	0.358895	
  49.499	0.358895	
 49.6994	0.358895	
 49.8998	0.356565	
 50.1002	0.356565	
 50.3006	0.356565	
  50.501	0.356565	
 50.7014	0.354234	
 50.9018	0.354234	
 51.1022	0.354234	
 51.3026	0.354234	
  51.503	0.351904	
 51.7034	0.351904	
 51.9038	0.351904	
 52.1042	0.351904	
 52.3046	0.349573	
  52.505	0.349573	
 52.7054	0.349573	
 52.9058	0.349573	
 53.1062	0.349573	
 53.3066	0.347243	
  53.507	0.347243	
 53.7074	0.347243	
 53.9078	0.347243	
 54.1082	0.344912	
 54.3086	0.344912	
  54.509	0.344912	
 54.7094	0.344912	
 54.9098	0.342582	
 55.1102	0.342582	
 55.3106	0.342582	
  55.511	0.342582	
 55.7114	0.340251	
 55.9118	0.340251	
 56.1122	0.340251	
 56.3126	0.340251	
  56.513	0.340251	
 56.7134	0.337921	
 56.9138	0.337921	
 57.1142	0.337921	
 57.3146	0.337921	
  57.515	 0.33559	
 57.7154	 0.33559	
 57.9158	 0.33559	
 58.1162	 0.33559	
 58.3166	 0.33559	
  58.517	 0.33326	
 58.7174	 0.33326	
 58.9178	 0.33326	
 59.1182	 0.33326	
 59.3186	0.330929	
  59.519	0.330929	
 59.7194	0.330929	
 59.9198	0.330929	
 60.1202	0.328599	
 60.3206	0.328599	
  60.521	0.328599	
 60.7214	0.328599	
 60.9218	0.326268	
 61.1222	0.326268	
 61.3226	0.326268	
  61.523	0.326268	
 61.7234	0.326268	
 61.9238	0.323938	
 62.1242	0.323938	
 62.3246	0.323938	
 62.5251	0.323938	
 62.7255	0.321607	
 62.9259	0.321607	
 63.1263	0.321607	
 63.3267	0.321607	
 63.5271	0.319277	
 63.7275	0.319277	
 63.9279	0.319277	
 64.1283	0.319277	
 64.3287	0.316946	
 64.5291	0.316946	
 64.7295	0.316946	
 64.9299	0.316946	
 65.1303	0.316946	
 65.3307	0.314616	
 65.5311	0.314616	
 65.7315	0.314616	
 65.9319	0.314616	
 66.1323	0.312285	
 66.3327	0.312285	
 66.5331	0.312285	
 66.7335	0.312285	
 66.9339	0.309955	
 67.1343	0.309955	
 67.3347	0.309955	
 67.5351	0.309955	
 67.7355	0.309955	
 67.9359	0.307624	
 68.1363	0.307624	
 68.3367	0.307624	
 68.5371	0.307624	
 68.7375	0.305294	
 68.9379	0.305294	
 69.1383	0.305294	
 69.3387	0.305294	
 69.5391	0.302963	
 69.7395	0.302963	
 69.9399	0.302963	
 70.1403	0.302963	
 70.3407	0.300633	
 70.5411	0.300633	
 70.7415	0.300633	
 70.9419	0.300633	
 71.1423	0.298302	
 71.3427	0.298302	
 71.5431	0.298302	
 71.7435	0.298302	
 71.9439	0.295972	
 72.1443	0.295972	
 72.3447	0.295972	
 72.5451	0.295972	
 72.7455	0.293641	
 72.9459	0.293641	
 73.1463	0.293641	
 73.3467	0.293641	
 73.5471	0.291311	
 73.7475	0.291311	
 73.9479	0.291311	
 74.1483	0.291311	
 74.3487	0.288981	
 74.5491	0.288981	
 74.7495	0.288981	
 74.9499	0.288981	
 75.1503	 0.28665	
 75.3507	 0.28665	
 75.5511	 0.28665	
 75.7515	 0.28665	
 75.9519	 0.28432	
 76.1523	 0.28432	
 76.3527	 0.28432	
 76.5531	 0.28432	
 76.7535	0.281989	
 76.9539	0.281989	
 77.1543	0.281989	
 77.3547	0.279659	
 77.5551	0.279659	
 77.7555	0.279659	
 77.9559	0.279659	
 78.1563	0.277328	
 78.3567	0.277328	
 78.5571	0.277328	
 78.7575	0.277328	
 78.9579	0.274998	
 79.1583	0.274998	
 79.3587	0.274998	
 79.5591	0.272667	
 79.7595	0.272667	
 79.9599	0.272667	
 80.1603	0.272667	
 80.3607	0.270337	
 80.5611	0.270337	
 80.7615	0.270337	
 80.9619	0.268006	
 81.1623	0.268006	
 81.3627	0.268006	
 81.5631	0.265676	
 81.7635	0.265676	
 81.9639	0.265676	
 82.1643	0.265676	
 82.3647	0.263345	
 82.5651	0.263345	
 82.7655	0.263345	
 82.9659	0.261015	
 83.1663	0.261015	
 83.3667	0.261015	
 83.5671	0.258684	
 83.7675	0.258684	
 83.9679	0.258684	
 84.1683	0.256354	
 84.3687	0.256354	
 84.5691	0.256354	
 84.7695	0.254023	
 84.9699	0.254023	
 85.1703	0.251693	
 85.3707	0.251693	
 85.5711	0.251693	
 85.7715	0.249362	
 85.9719	0.249362	
 86.1723	0.249362	
 86.3727	0.247032	
 86.5731	0.247032	
 86.7735	0.247032	
 86.9739	0.244701	
 87.1743	0.244701	
 87.3747	0.242371	
 87.5752	0.242371	
 87.7756	0.242371	
  87.976	 0.24004	
 88.1764	 0.24004	
 88.3768	 0.24004	
 88.5772	 0.23771	
 88.7776	 0.23771	
  88.978	0.235379	
 89.1784	0.235379	
 89.3788	0.235379	
 89.5792	0.233049	
 89.7796	0.233049	
   89.98	0.230718	
 90.1804	0.230718	
 90.3808	0.228388	
 90.5812	0.228388	
 90.7816	0.226057	
  90.982	0.226057	
 91.1824	0.226057	
 91.3828	0.223727	
 91.5832	0.221396	
 91.7836	0.221396	
  91.984	0.219066	
 92.1844	0.219066	
 92.3848	0.216735	
 92.5852	0.216735	
 92.7856	0.214405	
  92.986	0.214405	
 93.1864	0.212074	
 93.3868	0.209744	
 93.5872	0.209744	
 93.7876	0.207413	
  93.988	0.205083	
 94.1884	0.205083	
 94.3888	0.202752	
 94.5892	0.200422	
 94.7896	0.200422	
   94.99	0.198091	
 95.1904	0.195761	
 95.3908	 0.19343	
 95.5912	 0.19343	
 95.7916	  0.1911	
  95.992	 0.18877	
 96.1924	0.186439	
 96.3928	0.184109	
 96.5932	0.181778	
 96.7936	0.179448	
  96.994	0.177117	
 97.1944	0.172456	
 97.3948	0.170126	
 97.5952	0.167795	
 97.7956	0.163134	
  97.996	0.160804	
 98.1964	0.158473	
 98.3968	0.153812	
 98.5972	0.149151	
 98.7976	 0.14449	
  98.998	0.139829	
 99.1984	0.132838	
 99.3988	0.123516	
 99.5992	0.116524	
 99.7996	0.104872	
     100	       0	
