# File Format = ASCII
# Save As: C:\Omicron\data\sample\2009 05 26 ALD6\Pictures\used\1cycle_Abbott_prf.asc
# Original file: c:\omicron\data\sample\2009 05 26 ald6\next day\1cycle2\s3 -115 20 04v\s4\m1_ori.tb0_Abbott.prf
# Curve plot created by SPIP V.3.3.9.0
# 11:32
# points   = 500
# X-Axis: Bearing area[%]; Y-Axis: Height [nm]
# length = 100
# offset = 0
# Start of Data:
# x-phys	 y-val
#------------------------------
       0	 1.93515	
0.200401	 1.93127	
0.400802	 1.29915	
0.601202	 1.22934	
0.801603	  1.1828	
   1.002	 1.15178	
  1.2024	 1.12463	
 1.40281	 1.10912	
 1.60321	 1.08973	
 1.80361	  1.0781	
 2.00401	 1.06259	
 2.20441	 1.05095	
 2.40481	 1.03932	
 2.60521	 1.02768	
 2.80561	 1.01605	
 3.00601	 1.00829	
 3.20641	 1.00054	
 3.40681	 0.99278	
 3.60721	0.985024	
 3.80762	0.977268	
 4.00802	0.969512	
 4.20842	0.961756	
 4.40882	   0.954	
 4.60922	0.946244	
 4.80962	0.938488	
 5.01002	 0.93461	
 5.21042	0.926854	
 5.41082	0.922975	
 5.61122	0.915219	
 5.81162	0.911341	
 6.01202	0.907463	
 6.21242	0.899707	
 6.41283	0.895829	
 6.61323	0.891951	
 6.81363	0.884195	
 7.01403	0.880317	
 7.21443	0.876439	
 7.41483	0.872561	
 7.61523	0.864805	
 7.81563	0.860927	
 8.01603	0.857049	
 8.21643	0.853171	
 8.41683	0.849293	
 8.61723	0.845415	
 8.81764	0.841536	
 9.01804	0.837658	
 9.21844	 0.83378	
 9.41884	0.829902	
 9.61924	0.822146	
 9.81964	0.818268	
   10.02	 0.81439	
 10.2204	 0.81439	
 10.4208	0.810512	
 10.6212	0.806634	
 10.8216	0.802756	
  11.022	0.798878	
 11.2224	   0.795	
 11.4228	0.791122	
 11.6232	0.787244	
 11.8236	0.783366	
  12.024	0.779488	
 12.2244	0.779488	
 12.4248	 0.77561	
 12.6253	0.771732	
 12.8257	0.767854	
 13.0261	0.767854	
 13.2265	0.763976	
 13.4269	0.760097	
 13.6273	0.756219	
 13.8277	0.752341	
 14.0281	0.752341	
 14.2285	0.748463	
 14.4289	0.744585	
 14.6293	0.744585	
 14.8297	0.740707	
 15.0301	0.736829	
 15.2305	0.736829	
 15.4309	0.732951	
 15.6313	0.729073	
 15.8317	0.729073	
 16.0321	0.725195	
 16.2325	0.721317	
 16.4329	0.721317	
 16.6333	0.717439	
 16.8337	0.713561	
 17.0341	0.713561	
 17.2345	0.709683	
 17.4349	0.709683	
 17.6353	0.705805	
 17.8357	0.701927	
 18.0361	0.701927	
 18.2365	0.698049	
 18.4369	0.698049	
 18.6373	0.694171	
 18.8377	0.694171	
 19.0381	0.690293	
 19.2385	0.690293	
 19.4389	0.686415	
 19.6393	0.682536	
 19.8397	0.682536	
 20.0401	0.678658	
 20.2405	0.678658	
 20.4409	 0.67478	
 20.6413	 0.67478	
 20.8417	0.670902	
 21.0421	0.670902	
 21.2425	0.667024	
 21.4429	0.667024	
 21.6433	0.663146	
 21.8437	0.663146	
 22.0441	0.659268	
 22.2445	0.659268	
 22.4449	0.659268	
 22.6453	 0.65539	
 22.8457	 0.65539	
 23.0461	0.651512	
 23.2465	0.651512	
 23.4469	0.647634	
 23.6473	0.647634	
 23.8477	0.643756	
 24.0481	0.643756	
 24.2485	0.643756	
 24.4489	0.639878	
 24.6493	0.639878	
 24.8497	   0.636	
 25.0501	   0.636	
 25.2505	   0.636	
 25.4509	0.632122	
 25.6513	0.632122	
 25.8517	0.628244	
 26.0521	0.628244	
 26.2525	0.628244	
 26.4529	0.624366	
 26.6533	0.624366	
 26.8537	0.620488	
 27.0541	0.620488	
 27.2545	0.620488	
 27.4549	 0.61661	
 27.6553	 0.61661	
 27.8557	 0.61661	
 28.0561	0.612732	
 28.2565	0.612732	
 28.4569	0.608854	
 28.6573	0.608854	
 28.8577	0.608854	
 29.0581	0.604976	
 29.2585	0.604976	
 29.4589	0.604976	
 29.6593	0.601097	
 29.8597	0.601097	
 30.0601	0.601097	
 30.2605	0.597219	
 30.4609	0.597219	
 30.6613	0.597219	
 30.8617	0.593341	
 31.0621	0.593341	
 31.2625	0.589463	
 31.4629	0.589463	
 31.6633	0.589463	
 31.8637	0.585585	
 32.0641	0.585585	
 32.2645	0.585585	
 32.4649	0.581707	
 32.6653	0.581707	
 32.8657	0.581707	
 33.0661	0.581707	
 33.2665	0.577829	
 33.4669	0.577829	
 33.6673	0.577829	
 33.8677	0.573951	
 34.0681	0.573951	
 34.2685	0.573951	
 34.4689	0.570073	
 34.6693	0.570073	
 34.8697	0.570073	
 35.0701	0.566195	
 35.2705	0.566195	
 35.4709	0.566195	
 35.6713	0.562317	
 35.8717	0.562317	
 36.0721	0.562317	
 36.2725	0.562317	
 36.4729	0.558439	
 36.6733	0.558439	
 36.8737	0.558439	
 37.0741	0.554561	
 37.2745	0.554561	
 37.4749	0.554561	
 37.6754	0.554561	
 37.8758	0.550683	
 38.0762	0.550683	
 38.2766	0.550683	
  38.477	0.550683	
 38.6774	0.546805	
 38.8778	0.546805	
 39.0782	0.546805	
 39.2786	0.542927	
  39.479	0.542927	
 39.6794	0.542927	
 39.8798	0.542927	
 40.0802	0.539049	
 40.2806	0.539049	
  40.481	0.539049	
 40.6814	0.539049	
 40.8818	0.535171	
 41.0822	0.535171	
 41.2826	0.535171	
  41.483	0.535171	
 41.6834	0.531293	
 41.8838	0.531293	
 42.0842	0.531293	
 42.2846	0.531293	
  42.485	0.527415	
 42.6854	0.527415	
 42.8858	0.527415	
 43.0862	0.523537	
 43.2866	0.523537	
  43.487	0.523537	
 43.6874	0.523537	
 43.8878	0.523537	
 44.0882	0.519658	
 44.2886	0.519658	
  44.489	0.519658	
 44.6894	0.519658	
 44.8898	 0.51578	
 45.0902	 0.51578	
 45.2906	 0.51578	
  45.491	 0.51578	
 45.6914	0.511902	
 45.8918	0.511902	
 46.0922	0.511902	
 46.2926	0.511902	
  46.493	0.511902	
 46.6934	0.508024	
 46.8938	0.508024	
 47.0942	0.508024	
 47.2946	0.508024	
  47.495	0.504146	
 47.6954	0.504146	
 47.8958	0.504146	
 48.0962	0.504146	
 48.2966	0.504146	
  48.497	0.500268	
 48.6974	0.500268	
 48.8978	0.500268	
 49.0982	0.500268	
 49.2986	 0.49639	
  49.499	 0.49639	
 49.6994	 0.49639	
 49.8998	 0.49639	
 50.1002	0.492512	
 50.3006	0.492512	
  50.501	0.492512	
 50.7014	0.492512	
 50.9018	0.492512	
 51.1022	0.488634	
 51.3026	0.488634	
  51.503	0.488634	
 51.7034	0.488634	
 51.9038	0.488634	
 52.1042	0.484756	
 52.3046	0.484756	
  52.505	0.484756	
 52.7054	0.484756	
 52.9058	0.484756	
 53.1062	0.480878	
 53.3066	0.480878	
  53.507	0.480878	
 53.7074	0.480878	
 53.9078	   0.477	
 54.1082	   0.477	
 54.3086	   0.477	
  54.509	   0.477	
 54.7094	   0.477	
 54.9098	0.473122	
 55.1102	0.473122	
 55.3106	0.473122	
  55.511	0.473122	
 55.7114	0.473122	
 55.9118	0.469244	
 56.1122	0.469244	
 56.3126	0.469244	
  56.513	0.469244	
 56.7134	0.465366	
 56.9138	0.465366	
 57.1142	0.465366	
 57.3146	0.465366	
  57.515	0.465366	
 57.7154	0.461488	
 57.9158	0.461488	
 58.1162	0.461488	
 58.3166	0.461488	
  58.517	0.461488	
 58.7174	 0.45761	
 58.9178	 0.45761	
 59.1182	 0.45761	
 59.3186	 0.45761	
  59.519	 0.45761	
 59.7194	0.453732	
 59.9198	0.453732	
 60.1202	0.453732	
 60.3206	0.453732	
  60.521	0.453732	
 60.7214	0.449854	
 60.9218	0.449854	
 61.1222	0.449854	
 61.3226	0.449854	
  61.523	0.449854	
 61.7234	0.445976	
 61.9238	0.445976	
 62.1242	0.445976	
 62.3246	0.445976	
 62.5251	0.445976	
 62.7255	0.442097	
 62.9259	0.442097	
 63.1263	0.442097	
 63.3267	0.442097	
 63.5271	0.438219	
 63.7275	0.438219	
 63.9279	0.438219	
 64.1283	0.438219	
 64.3287	0.438219	
 64.5291	0.434341	
 64.7295	0.434341	
 64.9299	0.434341	
 65.1303	0.434341	
 65.3307	0.434341	
 65.5311	0.430463	
 65.7315	0.430463	
 65.9319	0.430463	
 66.1323	0.430463	
 66.3327	0.430463	
 66.5331	0.426585	
 66.7335	0.426585	
 66.9339	0.426585	
 67.1343	0.426585	
 67.3347	0.426585	
 67.5351	0.422707	
 67.7355	0.422707	
 67.9359	0.422707	
 68.1363	0.422707	
 68.3367	0.422707	
 68.5371	0.418829	
 68.7375	0.418829	
 68.9379	0.418829	
 69.1383	0.418829	
 69.3387	0.418829	
 69.5391	0.414951	
 69.7395	0.414951	
 69.9399	0.414951	
 70.1403	0.414951	
 70.3407	0.411073	
 70.5411	0.411073	
 70.7415	0.411073	
 70.9419	0.411073	
 71.1423	0.411073	
 71.3427	0.407195	
 71.5431	0.407195	
 71.7435	0.407195	
 71.9439	0.407195	
 72.1443	0.407195	
 72.3447	0.403317	
 72.5451	0.403317	
 72.7455	0.403317	
 72.9459	0.403317	
 73.1463	0.403317	
 73.3467	0.399439	
 73.5471	0.399439	
 73.7475	0.399439	
 73.9479	0.399439	
 74.1483	0.395561	
 74.3487	0.395561	
 74.5491	0.395561	
 74.7495	0.395561	
 74.9499	0.395561	
 75.1503	0.391683	
 75.3507	0.391683	
 75.5511	0.391683	
 75.7515	0.391683	
 75.9519	0.387805	
 76.1523	0.387805	
 76.3527	0.387805	
 76.5531	0.387805	
 76.7535	0.387805	
 76.9539	0.383927	
 77.1543	0.383927	
 77.3547	0.383927	
 77.5551	0.383927	
 77.7555	0.380049	
 77.9559	0.380049	
 78.1563	0.380049	
 78.3567	0.380049	
 78.5571	0.376171	
 78.7575	0.376171	
 78.9579	0.376171	
 79.1583	0.376171	
 79.3587	0.372293	
 79.5591	0.372293	
 79.7595	0.372293	
 79.9599	0.372293	
 80.1603	0.368415	
 80.3607	0.368415	
 80.5611	0.368415	
 80.7615	0.368415	
 80.9619	0.364537	
 81.1623	0.364537	
 81.3627	0.364537	
 81.5631	0.364537	
 81.7635	0.360658	
 81.9639	0.360658	
 82.1643	0.360658	
 82.3647	0.360658	
 82.5651	 0.35678	
 82.7655	 0.35678	
 82.9659	 0.35678	
 83.1663	 0.35678	
 83.3667	0.352902	
 83.5671	0.352902	
 83.7675	0.352902	
 83.9679	0.349024	
 84.1683	0.349024	
 84.3687	0.349024	
 84.5691	0.349024	
 84.7695	0.345146	
 84.9699	0.345146	
 85.1703	0.345146	
 85.3707	0.341268	
 85.5711	0.341268	
 85.7715	0.341268	
 85.9719	 0.33739	
 86.1723	 0.33739	
 86.3727	 0.33739	
 86.5731	0.333512	
 86.7735	0.333512	
 86.9739	0.333512	
 87.1743	0.329634	
 87.3747	0.329634	
 87.5752	0.329634	
 87.7756	0.325756	
  87.976	0.325756	
 88.1764	0.325756	
 88.3768	0.321878	
 88.5772	0.321878	
 88.7776	0.321878	
  88.978	   0.318	
 89.1784	   0.318	
 89.3788	   0.318	
 89.5792	0.314122	
 89.7796	0.314122	
   89.98	0.314122	
 90.1804	0.310244	
 90.3808	0.310244	
 90.5812	0.310244	
 90.7816	0.306366	
  90.982	0.306366	
 91.1824	0.302488	
 91.3828	0.302488	
 91.5832	 0.29861	
 91.7836	 0.29861	
  91.984	 0.29861	
 92.1844	0.294732	
 92.3848	0.294732	
 92.5852	0.290854	
 92.7856	0.290854	
  92.986	0.286976	
 93.1864	0.286976	
 93.3868	0.283098	
 93.5872	0.283098	
 93.7876	0.279219	
  93.988	0.279219	
 94.1884	0.275341	
 94.3888	0.275341	
 94.5892	0.271463	
 94.7896	0.271463	
   94.99	0.267585	
 95.1904	0.263707	
 95.3908	0.263707	
 95.5912	0.259829	
 95.7916	0.255951	
  95.992	0.255951	
 96.1924	0.252073	
 96.3928	0.248195	
 96.5932	0.244317	
 96.7936	0.240439	
  96.994	0.236561	
 97.1944	0.232683	
 97.3948	0.228805	
 97.5952	0.224927	
 97.7956	0.221049	
  97.996	0.217171	
 98.1964	0.213293	
 98.3968	0.209415	
 98.5972	0.201659	
 98.7976	 0.19778	
  98.998	0.190024	
 99.1984	0.182268	
 99.3988	0.170634	
 99.5992	   0.159	
 99.7996	0.143488	
     100	       0	
